ms,resistance
1.0,443.0
2.0,543.0
3.0,547.0
4.0,551.0
5.0,551.0
6.0,551.0
7.0,551.0
8.0,547.0
9.0,543.0
10.0,547.0
11.0,543.0
12.0,541.0
13.0,539.0
14.0,537.0
15.0,534.0
16.0,531.0
17.0,531.0
18.0,535.0
19.0,543.0
20.0,547.0
21.0,551.0
22.0,555.0
23.0,559.0
24.0,566.0
25.0,563.0
26.0,559.0
27.0,555.0
28.0,559.0
29.0,559.0
30.0,559.0
31.0,559.0
32.0,559.0
33.0,559.0
34.0,557.0
35.0,555.0
36.0,551.0
37.0,546.0
38.0,542.0
39.0,535.0
40.0,531.0
41.0,533.0
42.0,527.0
43.0,525.0
44.0,523.0
45.0,521.0
46.0,519.0
47.0,519.0
48.0,519.0
49.0,519.0
50.0,517.0
51.0,517.0
52.0,517.0
53.0,517.0
54.0,519.0
55.0,521.0
56.0,526.0
57.0,527.0
58.0,535.0
59.0,535.0
60.0,543.0
61.0,546.0
62.0,551.0
63.0,553.0
64.0,555.0
65.0,551.0
66.0,553.0
67.0,555.0
68.0,555.0
69.0,557.0
70.0,550.0
71.0,551.0
72.0,555.0
73.0,551.0
74.0,547.0
75.0,543.0
76.0,541.0
77.0,539.0
78.0,537.0
79.0,535.0
80.0,537.0
81.0,547.0
82.0,557.0
83.0,565.0
84.0,579.0
85.0,590.0
86.0,605.0
87.0,606.0
88.0,603.0
89.0,595.0
90.0,595.0
91.0,598.0
92.0,603.0
93.0,613.0
94.0,618.0
95.0,615.0
96.0,605.0
97.0,597.0
98.0,591.0
99.0,585.0
100.0,579.0
101.0,574.0
102.0,567.0
103.0,559.0
104.0,559.0
105.0,551.0
106.0,551.0
107.0,547.0
108.0,543.0
109.0,543.0
110.0,543.0
111.0,543.0
112.0,543.0
113.0,543.0
114.0,547.0
115.0,555.0
116.0,559.0
117.0,565.0
118.0,571.0
119.0,575.0
120.0,582.0
121.0,583.0
122.0,583.0
123.0,581.0
124.0,579.0
125.0,579.0
126.0,582.0
127.0,583.0
128.0,583.0
129.0,575.0
130.0,567.0
131.0,563.0
132.0,558.0
133.0,555.0
134.0,551.0
135.0,551.0
136.0,551.0
137.0,549.0
138.0,547.0
139.0,547.0
140.0,549.0
141.0,547.0
142.0,543.0
143.0,541.0
144.0,541.0
145.0,547.0
146.0,559.0
147.0,567.0
148.0,573.0
149.0,575.0
150.0,583.0
151.0,591.0
152.0,591.0
153.0,597.0
154.0,603.0
155.0,605.0
156.0,611.0
157.0,607.0
158.0,605.0
159.0,603.0
160.0,599.0
161.0,599.0
162.0,599.0
163.0,599.0
164.0,597.0
165.0,597.0
166.0,595.0
167.0,590.0
168.0,587.0
169.0,586.0
170.0,583.0
171.0,583.0
172.0,583.0
173.0,581.0
174.0,579.0
175.0,575.0
176.0,575.0
177.0,567.0
178.0,567.0
179.0,563.0
180.0,559.0
181.0,559.0
182.0,558.0
183.0,555.0
184.0,557.0
185.0,559.0
186.0,559.0
187.0,563.0
188.0,567.0
189.0,567.0
190.0,571.0
191.0,575.0
192.0,581.0
193.0,582.0
194.0,581.0
195.0,579.0
196.0,579.0
197.0,579.0
198.0,579.0
199.0,579.0
200.0,582.0
201.0,583.0
202.0,583.0
203.0,579.0
204.0,575.0
205.0,573.0
206.0,567.0
207.0,563.0
208.0,559.0
209.0,557.0
210.0,551.0
211.0,551.0
212.0,547.0
213.0,543.0
214.0,543.0
215.0,551.0
216.0,563.0
217.0,573.0
