ms,resistance
1.0,599.0
2.0,598.0
3.0,595.0
4.0,591.0
5.0,591.0
6.0,587.0
7.0,583.0
8.0,579.0
9.0,579.0
10.0,575.0
11.0,573.0
12.0,567.0
13.0,563.0
14.0,559.0
15.0,558.0
16.0,554.0
17.0,551.0
18.0,549.0
19.0,547.0
20.0,543.0
21.0,543.0
22.0,543.0
23.0,543.0
24.0,547.0
25.0,551.0
26.0,557.0
27.0,559.0
28.0,567.0
29.0,571.0
30.0,575.0
31.0,590.0
32.0,591.0
33.0,591.0
34.0,587.0
35.0,583.0
36.0,581.0
37.0,575.0
38.0,574.0
39.0,570.0
40.0,563.0
41.0,559.0
42.0,555.0
43.0,551.0
44.0,551.0
45.0,547.0
46.0,543.0
47.0,542.0
48.0,541.0
49.0,547.0
50.0,559.0
51.0,571.0
52.0,579.0
53.0,590.0
54.0,599.0
55.0,605.0
56.0,606.0
57.0,603.0
58.0,603.0
59.0,603.0
60.0,599.0
61.0,599.0
62.0,591.0
63.0,587.0
64.0,580.0
65.0,575.0
66.0,574.0
67.0,570.0
68.0,567.0
69.0,563.0
70.0,559.0
71.0,559.0
72.0,557.0
73.0,557.0
74.0,551.0
75.0,551.0
76.0,547.0
77.0,543.0
78.0,541.0
79.0,539.0
80.0,535.0
81.0,535.0
82.0,535.0
83.0,539.0
84.0,543.0
85.0,550.0
86.0,557.0
87.0,559.0
88.0,567.0
89.0,575.0
90.0,579.0
91.0,583.0
92.0,586.0
93.0,589.0
94.0,591.0
95.0,589.0
96.0,586.0
97.0,583.0
98.0,575.0
99.0,571.0
100.0,567.0
101.0,559.0
102.0,557.0
103.0,555.0
104.0,551.0
105.0,549.0
106.0,547.0
107.0,543.0
108.0,543.0
109.0,541.0
110.0,543.0
111.0,551.0
112.0,563.0
113.0,570.0
114.0,579.0
115.0,591.0
116.0,598.0
117.0,599.0
118.0,599.0
119.0,603.0
120.0,603.0
121.0,605.0
122.0,607.0
123.0,603.0
124.0,599.0
125.0,597.0
126.0,587.0
127.0,579.0
128.0,575.0
129.0,573.0
130.0,571.0
131.0,571.0
132.0,567.0
133.0,563.0
134.0,559.0
135.0,555.0
136.0,551.0
137.0,551.0
138.0,559.0
139.0,559.0
140.0,555.0
141.0,555.0
142.0,555.0
143.0,559.0
144.0,566.0
145.0,559.0
146.0,555.0
147.0,555.0
148.0,557.0
149.0,563.0
150.0,567.0
151.0,571.0
152.0,573.0
153.0,575.0
154.0,575.0
155.0,579.0
156.0,583.0
157.0,583.0
158.0,587.0
159.0,581.0
160.0,573.0
161.0,567.0
162.0,563.0
163.0,559.0
164.0,558.0
165.0,555.0
166.0,555.0
167.0,555.0
168.0,555.0
169.0,554.0
170.0,551.0
171.0,551.0
172.0,551.0
173.0,549.0
174.0,543.0
175.0,543.0
176.0,543.0
177.0,547.0
178.0,551.0
179.0,555.0
180.0,559.0
181.0,566.0
182.0,571.0
183.0,571.0
184.0,571.0
185.0,571.0
186.0,575.0
187.0,569.0
188.0,565.0
189.0,563.0
190.0,559.0
191.0,557.0
192.0,555.0
193.0,559.0
194.0,559.0
195.0,559.0
196.0,559.0
197.0,555.0
198.0,557.0
199.0,559.0
200.0,559.0
201.0,557.0
202.0,555.0
203.0,551.0
204.0,547.0
205.0,543.0
206.0,543.0
207.0,541.0
208.0,539.0
209.0,542.0
210.0,543.0
211.0,547.0
212.0,551.0
213.0,559.0
214.0,571.0
215.0,575.0
216.0,573.0
217.0,571.0
218.0,565.0
